Folder: GAP-nZVI

File: nZVI-1_XRD.csv
1.0081;143
2.3143;364
2.4667;365
2.5756;366
2.6844;420
2.7278;582
2.7717;259
2.8369;367
2.9893;367
3.5336;370
3.8168;317
4.078;318
4.2086;373
4.3394;266
4.9707;376
5.428;324
5.5803;433
5.6459;217
5.7765;218
5.9506;273
6.125;112
6.1903;166
6.2989;328
6.5167;275
6.6693;114
7.2136;170
7.3225;117
7.5402;172
8.1569;121
8.3461;-40
8.5854;123
8.6945;-39
8.912;124
9.0208;178
9.2387;72
9.4564;126
9.7395;20
9.8919;74
10.0225;75
10.1749;129
10.9805;133
11.0893;187
11.3725;81
11.6773;136
12.3303;246
12.5918;86
12.7878;87
12.962;88
13.1579;89
13.5281;36
13.7241;37
13.9201;-16
14.0289;92
14.116;93
14.399;94
14.5079;94
14.6386;41
14.7909;149
14.9216;96
15.161;151
15.4005;152
15.5748;99
15.6402;45
15.749;1.00E+02
15.9015;47
16.2498;102
16.4457;157
16.5983;-4
16.9029;159
17.2079;52
17.5562;108
17.7305;0.7
18.1223;110
18.5795;166
18.7973;59
18.906;221
19.298;169
19.3416;115
19.5811;116
19.9512;172
20.0601;119
21.1705;231
21.5189;179
21.6278;125
21.7803;72
22.2376;74
22.6294;184
22.7599;238
22.956;131
23.1519;186
23.3262;79
23.5873;242
23.6745;188
23.805;296
23.9141;135
24.1317;190
24.3279;29
24.4583;191
24.6762;85
24.7631;247
24.981;86
25.0679;248
25.4383;88
26.0043;198
26.2437;307
26.4397;254
26.8752;202
27.1366;149
27.3761;150
27.7246;44
27.8986;153
28.0946;153
28.2687;208
28.3776;209
28.4425;532
28.5286;1394
28.5949;533
28.6172;156
28.7261;102
28.8786;49
29.205;158
29.4446;159
29.7712;107
30.0543;54
30.3808;217
30.5548;326
31.0558;166
31.6219;169
31.905;170
32.188;225
32.4058;172
32.8195;174
33.0154;229
33.2766;230
33.5161;285
33.6469;178
33.8428;178
34.1258;234
34.213;126
34.7138;182
35.1928;184
35.4323;132
35.7154;133
36.0204;-27
36.1511;-27
36.2598;81
36.4775;136
36.7387;191
37.0218;138
37.2613;193
37.3701;194
37.5443;248
37.958;196
38.3063;252
38.6331;145
38.9161;200
39.1554;309
39.4168;203
39.8523;205
40.1137;152
40.2877;260
40.5709;154
40.7233;154
40.9411;155
41.115;372
41.1805;210
41.5071;212
41.7901;267
41.9861;268
42.2474;269
42.5086;270
42.7264;217
42.9659;218
43.5103;220
43.8151;222
44.0763;331
44.5119;225
44.7731;226
45.1216;120
45.3826;390
45.4919;68
45.5788;176
45.6877;176
46.1886;71
46.2974;125
46.5151;180
46.711;234
46.8197;396
47.0593;290
47.2117;344
47.3857;507
47.4728;507
47.6466;831
47.7554;885
47.776;1854
47.8041;15315
47.8103;9931
47.8269;33299
47.8414;20700
47.8633;1693
47.8891;17146
47.8953;11762
47.9274;2770
47.9432;7939
47.945;6378
47.9481;3686
47.9506;1532
47.9953;563
48.0384;940
48.1044;348
48.3002;510
48.4309;403
48.5833;458
48.823;244
48.9535;406
49.3455;353
49.5414;408
49.7158;194
49.9115;464
50.0858;303
50.5864;467
50.8044;252
51.1745;308
51.5229;309
51.7625;256
52.1108;258
52.4376;152
52.6769;314
53.0907;208
53.2212;316
53.3301;317
53.6566;426
53.7875;211
53.9833;320
54.114;267
54.3535;268
54.5057;430
54.6148;269
54.8542;377
54.9414;270
55.1809;271
55.4857;326
55.6383;165
55.9866;221
56.139;275
56.7703;386
57.0753;226
57.2276;280
57.4453;335
57.6415;174
57.8156;229
58.055;284
58.3381;285
58.6864;340
58.9694;395
59.3178;343
59.4052;128
59.4703;290

File: nzvi-2(corregido)_XRD.csv
10;-54
10.7972;218
10.9422;272
11.1234;273
11.3769;220
11.5763;382
11.667;490
11.8118;275
11.9024;383
12.1198;437
12.2467;492
12.3372;384
12.4821;438
12.6995;385
12.8808;547
13.1524;332
13.3336;387
13.714;388
13.8951;334
14.022;389
14.2031;335
14.3118;335
14.4748;282
14.5654;228
14.6741;228
14.8734;337
15.0907;230
15.2357;284
15.4349;230
15.7429;231
16.0146;178
16.2682;179
16.4313;287
16.5943;234
16.8841;126
17.1921;127
17.4819;74
17.5726;182
17.6994;129
17.9892;129
18.2609;76
18.5146;131
18.6957;131
18.9675;186
19.2392;133
19.5472;242
19.837;134
20.0544;135
20.3987;190
20.7247;83
20.8878;191
21.0689;138
21.232;138
21.5581;193
21.6849;139
21.8479;194
22.0472;140
22.2283;141
22.5183;250
22.7356;196
23.0073;143
23.2429;198
23.4602;144
23.6414;145
23.8769;145
24.1124;146
24.4023;147
24.5835;201
24.7646;148
25.1268;41
25.3443;149
25.6341;150
25.8334;151
25.9602;151
26.1052;205
26.2682;152
26.5037;152
26.6668;261
26.9567;262
27.174;208
27.4095;209
27.7356;210
27.9349;264
28.1704;157
28.4784;158
28.7864;213
29.04;159
29.1124;159
29.2936;160
29.511;161
29.7646;215
29.9277;270
30.1813;270
30.3987;217
30.6342;218
30.8515;164
31.1052;219
31.3588;219
31.6306;220
31.9748;221
32.319;222
32.627;385
32.935;278
33.2791;225
33.4964;117
33.6055;657
33.6601;1143
33.7321;388
33.9857;281
34.2574;173
34.6016;174
35.0907;176
35.3262;122
35.6522;123
35.9059;232
36.1958;179
36.4856;233
36.7755;180
37.011;181
37.4095;182
37.7175;237
37.8987;237
38.1704;238
38.4421;77
38.6958;185
38.8407;132
39.0037;186
39.1668;187
39.4385;79
39.6197;188
39.8371;296
40.0364;243
40.3624;190
40.5798;190
40.7067;245
40.9602;137
41.1053;354
41.4312;139
41.6486;139
41.8842;194
42.1197;195
42.2827;195
42.4277;249
42.79;196
43.0436;143
43.3516;198
43.5327;198
43.7682;145
43.9132;199
44.1487;200
44.3299;254
44.511;255
44.7284;256
44.9095;94
45.3081;203
45.5617;258
45.8697;205
46.1415;313
46.3588;206
46.5219;260
46.8299;261
47.2284;262
47.4277;209
47.79;210
48.243;427
48.4241;373
48.7683;374
49.0582;321
49.3301;592
49.6019;700
49.6946;4316
49.7177;12463
49.7484;33399
49.8203;2374
50.0546;486
50.5074;325
50.8517;380
51.1415;273
51.3589;381
51.5763;274
51.8298;167
52.2283;114
52.4638;115
52.7175;169
53.0255;224
53.2429;279
53.569;225
53.7501;226
54.0582;335
54.3299;335
54.6741;282
54.8915;337
55.1813;284
55.3263;284
55.4531;284
55.7066;177
55.9422;232
56.1234;286
56.3226;233
56.6487;288
56.8481;396
57.156;343
57.3734;344
57.5908;290
57.79;237
58.0255;184
58.2429;184
58.4965;239
58.7321;293
58.8226;294
59.0038;294
59.1487;241
59.3117;241
59.4929;295

File: nzvi-2.2_XRD.csv
0.2711;-53
2.1916;490
3.1631;385
4.7899;334
5.8066;228
7.1396;231
8.8568;235
10.4157;76
12.2458;188
14.0533;192
15.5445;195
17.1261;145
18.7754;41
20.3344;98
21.916;209
23.859;159
25.192;324
26.8414;166
29.146;225
30.5468;282
32.7836;179
34.817;237
36.3534;186
37.9801;190
39.4713;193
41.0755;197
42.7022;200
44.3516;204
46.2494;262
48.4636;374
49.8644;755
51.9657;274
53.9539;224
55.9196;229
57.4108;232
59.1957;344
60.0408;0.039
60.1186;0.093
60.1965;0.002
60.2744;0.025
60.3523;0.028
60.4302;0.22
60.5081;0.085
60.5859;0.017
60.6638;0.452
60.7417;1.75
60.8196;0.826
60.8975;0.464
60.9753;0.125
61.0532;0.173
61.1311;0.203
61.209;1.15
61.2869;0.823
61.3647;0.09
61.4426;-0.009
61.5205;0.031
61.5984;0.07
61.6763;0.151
61.7541;-0.15
61.832;0.102
61.9099;0.462
61.9878;0.019
62.0657;0.111
62.1436;-0.192
62.2214;0.056
62.2993;-0.004
62.3772;0.306
62.4551;0.306
62.533;0.151
62.6108;0.043
62.6887;0.226
62.7666;0.27
62.8445;0.022
62.9224;0.422
63.0002;0.485
63.0781;2.285
63.156;0.662
63.2339;0.151
63.3118;0.042
63.3896;0.159
63.4675;0.197
63.5454;0.457
63.6233;0.265
63.7012;-0.097
63.7791;0.027
63.8569;0.038
63.9348;0.127
64.0127;0.21
64.0906;0.228
64.1685;0.014
64.2463;0.096
64.3242;0.086
64.4021;-0.076
64.48;0.077
64.5579;0.693
64.6357;0.121
64.7136;0.282
64.7915;0.003
64.8694;-0.062
64.9473;-0.089
65.0251;0.306
65.103;0.183
65.1809;-0.073
65.2588;0.218
65.3367;0.067
65.4145;0.038
65.4924;-0.022
65.5703;0.345
65.6482;0.159
65.7261;-0.019
65.804;0.225
65.8818;0.427
65.9597;0.346
66.0376;0.509
66.1155;0.207
66.1934;0.178
66.2712;0.262
66.3491;0.084
66.427;0.113
66.5049;0.167
66.5828;0.204
66.6606;0.137
66.7385;0.222
66.8164;0.094
66.8943;-0.049
66.9722;0.318
67.05;0.006
67.1279;0.469
67.2058;0.297
67.2837;0.405
67.3616;3.228
67.4395;6.269
67.5173;0.806
67.5952;0.19
67.6731;-0.031
67.751;0.212
67.8289;0.137
67.9067;-0.053
67.9846;0.025
68.0625;-0.079
68.1404;0.237
68.2183;1.074
68.2961;0.469
68.374;0.046
68.4519;0.132
68.5298;0.148
68.6077;0.158
68.6855;0.149
68.7634;0.06
68.8413;-0.05
68.9192;0.249
68.9971;-0.13
69.075;0.04
69.1528;0.306
69.2307;0.106
69.3086;0.142
69.3865;0.079
69.4644;-0.084
69.5422;0.078
69.6201;0.818
69.698;0.37
69.7759;0.249
69.8538;0.304
69.9316;-0.009
70.0095;0.13
70.0874;0.207
70.1653;0.085
70.2432;0.066
70.321;0.162
70.3989;0.175
70.4768;0.146
70.5547;0.146
70.6326;0.222
70.7105;0.242
70.7883;0.246
70.8662;0.184
70.9441;-0.068
71.022;0.204
71.0999;0.119
71.1777;0.304
71.2556;0.472
71.3335;0.19
71.4114;-0.002
71.4893;0.018
71.5671;0.187
71.645;-0.027
71.7229;0.064
71.8008;0.348
71.8787;0.17
71.9565;0.14
72.0344;0.085
72.1123;0.063
72.1902;0.373
72.2681;-0.046
72.3459;0.16
72.4238;-0.051
72.5017;0.17
72.5796;0.057
72.6575;0.272
72.7354;0.242
72.8132;0.143
72.8911;0.198
72.969;0.167
73.0469;0.371
73.1248;0.252
73.2026;0.244
73.2805;0.123
73.3584;-0.001
73.4363;0.239
73.5142;0.13
73.592;0.053
73.6699;-0.236
73.7478;0.019
73.8257;0.207
73.9036;0.18
73.9814;0.03
74.0593;-0.052
74.1372;0.292
74.2151;-0.006
74.293;-0.068
74.3709;0.008
74.4487;0.058
74.5266;0.269
74.6045;0.216
74.6824;0.013
74.7603;0.132
74.8381;0.046
74.916;0.238
74.9939;0.173
75.0718;0.163
75.1497;0.309
75.2275;0.14
75.3054;0.012
75.3833;-0.136
75.4612;0.301
75.5391;0.319
75.6169;-0.021
75.6948;0.078
75.7727;0.001
75.8506;0.11
75.9285;0.12
76.0064;0.079
76.0842;0.052
76.1621;0.122
76.24;0.117
76.3179;0.013
76.3958;0.264
76.4736;0.034
76.5515;-0.039
76.6294;0.302
76.7073;0.563
76.7852;0.335
76.863;0.189
76.9409;0.207
77.0188;0.279
77.0967;-0.249
77.1746;0.268
77.2524;0.066
77.3303;0.237
77.4082;0.048
77.4861;0.275
77.564;0.431
77.6419;-0.072
77.7197;0.065
77.7976;0.212
77.8755;0.125
77.9534;0.189
78.0313;0.367
78.1091;0.182
78.187;0.237
78.2649;-0.079
78.3428;0.241
78.4207;0.037
78.4985;0.247
78.5764;0.036
78.6543;0.097
78.7322;0.268
78.8101;0.058
78.8879;0.124
78.9658;0.046
79.0437;0.096
79.1216;0.309
79.1995;0.184
79.2773;0.165
79.3552;-0.009
79.4331;0.157
79.511;0.151
79.5889;-0.016
79.6668;0.074
79.7446;0.205
79.8225;0.141
79.9004;0.029
79.9783;-0.083
79.992;0